Folder: TRI-Capstone/NewData

File: LFPBatteries.csv
abs_first_discharge_capacity_difference_cycles_2:100,abs_kurtosis_discharge_capacity_difference_cycles_2:100,abs_mean_discharge_capacity_difference_cycles_2:100,abs_min_discharge_capacity_difference_cycles_2:100,abs_skew_discharge_capacity_difference_cycles_2:100,abs_variance_discharge_capacity_difference_cycles_2:100,charge_time_cycles_1:5,discharge_capacity_cycle_100,discharge_capacity_cycle_2,integrated_time_temperature_cycles_1:100,intercept_discharge_capacity_cycle_number_2:100,intercept_discharge_capacity_cycle_number_91:100,max_discharge_capacity_difference,max_temperature_cycles_1:100,min_temperature_cycles_1:100,nominal_capacity_by_median,slope_discharge_capacity_cycle_number_2:100,slope_discharge_capacity_cycle_number_91:100,capacity_0.8,capacity_0.83,capacity_0.86,capacity_0.89,capacity_0.92,capacity_0.95,capacity_0.98
-3.30982,1.86703,-2.74286,-0.446806,0.584775,-3.16699,5760.0,1.032,1.03,306698,1.07291,1.032,1.035,18.459,15.16,1.033,-0.000594743,1.21779e-17,4550.0,4550.0,4550.0,4550.0,506.0,506.0,506.0
-3.01941,2.34982,-2.64871,-0.208776,0.993881,-3.05676,5785.6,1.042,1.04,296427,1.08388,1.042,1.043,16.706,15.281,1.044,-0.000602622,-5.69158e-18,3552.0,3552.0,3552.0,3552.0,3552.0,506.0,506.0
-2.31277,1.69437,-1.91759,-0.195631,0.655882,-2.4784,5811.2,1.03,1.03,262557,1.07099,1.03,1.029,20.877,15.107,1.031,-0.00059556,1.72732e-17,3760.0,3760.0,3760.0,3760.0,506.0,506.0,506.0
-2.67788,1.49585,-2.07642,-0.63173,0.0572557,-2.98159,5785.6,1.025,1.029,268509,1.06865,1.025,1.026,22.085,15.306,1.028,-0.000625516,1.94313e-18,3753.0,3753.0,3753.0,3753.0,506.0,506.0,506.0
-2.00544,0.393445,-1.6828,-0.189399,-0.220132,-1.29119,5785.6,1.059,1.067,614925,1.11104,1.06836,1.074,25.669,24.085,1.067,-0.000723983,-9.69697e-05,3049.0,3049.0,3049.0,3049.0,207.0,207.0,207.0
-2.38001,1.23324,-1.92013,-0.366808,0.547162,-2.36878,5785.6,1.029,1.032,460906,1.07245,1.029,1.032,26.685,24.393,1.032,-0.000625875,-1.64171e-17,3544.0,3544.0,3544.0,3544.0,506.0,506.0,506.0
-2.51511,1.72477,-2.25838,-0.141387,0.812973,-2.28916,5785.6,1.035,1.035,460297,1.07814,1.04935,1.038,25.985,23.911,1.038,-0.000614212,-0.000145455,3547.0,3547.0,3547.0,3547.0,506.0,506.0,506.0
-0.943098,0.797936,-2.14517,-0.455522,-0.123878,-2.46969,5785.6,1.048,1.05,457406,1.0916,1.05804,1.048,24.903,23.82,1.051,-0.000622449,-0.00010303,3037.0,3037.0,3037.0,3037.0,3037.0,506.0,506.0
-0.897819,0.712504,-2.04812,-0.525766,-0.122899,-2.47375,5785.6,1.047,1.049,467248,1.09022,1.047,1.048,26.084,24.058,1.049,-0.000622498,-1.38199e-17,3037.0,3037.0,3037.0,3037.0,3037.0,506.0,471.0
-2.45174,1.73586,-2.39613,-0.489405,0.711692,-3.07873,5811.2,1.03,1.036,394482,1.0735,1.03936,1.027,27.363,24.154,1.033,-0.000622795,-9.69697e-05,3543.0,3543.0,3543.0,3543.0,506.0,506.0,479.0
-2.24526,1.46398,-2.38943,-0.713155,0.579099,-3.20038,5785.6,1.026,1.03,0.0,1.06959,1.026,1.027,,,1.029,-0.00062825,2.30077e-17,4049.0,4049.0,4049.0,4049.0,506.0,506.0,506.0
-1.82104,1.4059,-2.30644,-0.657584,0.599192,-2.90643,5811.2,1.024,1.036,374946,1.07406,1.03396,1.031,30.346,24.026,1.032,-0.000693408,-9.69697e-05,207.0,207.0,207.0,207.0,207.0,207.0,207.0
-1.84446,1.52918,-3.41555,-0.480729,0.185791,-2.8456,5760.0,1.031,1.048,377108,1.08225,1.04373,1.034,30.82,24.154,1.039,-0.000711082,-0.000127273,4061.0,207.0,207.0,207.0,207.0,207.0,207.0
-1.76243,1.14207,-2.50456,-0.995597,0.101981,-3.58897,5785.6,1.021,1.039,383545,1.07299,1.03515,1.027,31.93,24.466,1.03,-0.000721459,-0.000145455,208.0,208.0,208.0,208.0,208.0,208.0,208.0
-2.85755,0.465665,-1.17538,-0.0625354,-0.300394,-1.14315,5785.6,1.043,1.062,378827,1.09475,1.05296,1.044,30.652,24.017,1.051,-0.000717502,-9.69697e-05,4061.0,205.0,205.0,205.0,205.0,205.0,205.0
-1.89773,-0.127012,-2.73353,-1.89773,-0.867056,-4.55295,5824.0,0.551,1.069,326905,0.657807,0.551,0.385,25.111,23.674,0.559,-0.0015529,2.88179e-18,7374.0,7374.0,7374.0,7374.0,7374.0,7374.0,7374.0
-1.76809,1.78517,-2.26801,-0.951845,0.368611,-3.8167,5824.0,0.582,1.045,342046,0.685755,0.590418,0.453,24.998,23.61,0.5925,-0.0014961,-8.48485e-05,7441.0,7441.0,7441.0,7441.0,7441.0,7441.0,7441.0
-1.80598,1.89372,-2.3258,-0.890672,0.49138,-3.71989,5888.0,0.589,1.064,345450,0.693612,0.589,0.461,24.976,23.603,0.598,-0.00151811,1.7872e-17,5944.0,5944.0,5944.0,5944.0,5944.0,5944.0,5944.0
-1.82431,1.39563,-2.3651,-1.16407,-0.211832,-4.24893,5824.0,0.587,1.047,341275,0.687993,0.577036,0.451,24.992,23.435,0.596,-0.00147461,9.69697e-05,6591.0,6591.0,6591.0,6591.0,6591.0,6591.0,6591.0
-2.49104,0.512895,-3.89142,-2.49104,0.010516,-5.75561,5824.0,0.66,1.053,245993,0.715546,0.66,0.002,28.538,24.423,0.66,-0.000827483,-8.17192e-18,2958.0,2958.0,2958.0,2958.0,2958.0,2958.0,2958.0
-1.3415,0.461667,-2.11706,-inf,0.308505,-3.83144,5824.0,0.22,1.07,152024,0.338612,0.22,0.003,24.89,23.472,0.22,-0.00176719,-2.47641e-18,19174.0,19174.0,19174.0,19174.0,19174.0,19174.0,19174.0
-1.3415,0.599729,-2.17475,-inf,0.343795,-3.91837,5824.0,0.22,1.066,153235,0.338134,0.22,0.003,24.866,23.659,0.22,-0.00176006,-2.47641e-18,18165.0,18165.0,18165.0,18165.0,18165.0,18165.0,18165.0
-1.6959,0.585317,-2.43859,-1.6959,0.354652,-4.65628,5824.0,0.22,1.064,110630,0.337896,0.22,0.003,28.177,24.458,0.22,-0.0017565,-2.47641e-18,12627.0,12627.0,12627.0,12627.0,12627.0,12627.0,12627.0
-2.11566,0.685729,-3.05765,-2.11566,0.395765,-5.49899,5824.0,0.22,1.05,108479,0.336225,0.22,0.003,27.385,24.079,0.22,-0.00173156,-2.47641e-18,11620.0,11620.0,11620.0,11620.0,11620.0,11620.0,11620.0
0.0,0.0,0.0,0.0,0.0,0.0,5862.4,1.058,1.076,671447,1.11192,1.07033,1.067,36.079,33.27,1.067,-0.000746432,-0.000127273,3155.0,3155.0,3155.0,257.0,257.0,257.0,234.0
0.0,0.0,0.0,0.0,0.0,0.0,5862.4,1.027,1.046,655295,1.07887,1.03696,1.031,36.065,33.434,1.036,-0.000715003,-9.69697e-05,3341.0,3341.0,257.0,257.0,257.0,257.0,241.0
0.0,0.0,0.0,0.0,0.0,0.0,5862.4,1.037,1.057,658225,1.09163,1.05115,1.047,35.1336,35.1336,1.047,-0.000752727,-0.000145455,3341.0,3341.0,257.0,257.0,257.0,126.0,125.0
0.0,0.0,0.0,0.0,0.0,0.0,5836.8,1.042,1.059,663204,1.09481,1.05196,1.05,36.433,33.993,1.051,-0.000729598,-9.69697e-05,3797.0,3797.0,257.0,257.0,257.0,257.0,252.0
0.0,0.0,0.0,0.0,0.0,0.0,5862.4,1.047,1.064,567988,1.09912,1.047,1.053,37.793,33.776,1.055,-0.000730204,-1.38199e-17,3855.0,3855.0,257.0,257.0,257.0,257.0,257.0
0.0,0.0,0.0,0.0,0.0,0.0,5862.4,1.021,1.039,558202,1.07367,1.03096,1.029,37.552,33.745,1.03,-0.000722177,-9.69697e-05,3597.0,257.0,257.0,257.0,257.0,257.0,238.0

File: NCABatteries.csv
abs_first_discharge_capacity_difference_cycles_2:100,abs_kurtosis_discharge_capacity_difference_cycles_2:100,abs_mean_discharge_capacity_difference_cycles_2:100,abs_min_discharge_capacity_difference_cycles_2:100,abs_skew_discharge_capacity_difference_cycles_2:100,abs_variance_discharge_capacity_difference_cycles_2:100,charge_time_cycles_1:5,discharge_capacity_cycle_100,discharge_capacity_cycle_2,integrated_time_temperature_cycles_1:100,intercept_discharge_capacity_cycle_number_2:100,intercept_discharge_capacity_cycle_number_91:100,max_discharge_capacity_difference,max_temperature_cycles_1:100,min_temperature_cycles_1:100,nominal_capacity_by_median,slope_discharge_capacity_cycle_number_2:100,slope_discharge_capacity_cycle_number_91:100,capacity_0.8,capacity_0.83,capacity_0.86,capacity_0.89,capacity_0.92,capacity_0.95,capacity_0.98
-0.581882,0.091227,-0.652902,-0.556555,-0.198558,-2.53784,1920.0,2.619,2.911,358191,2.99201,2.87802,2.817,30.881,16.419,2.824,-0.00421251,-0.00261818,521.0,257.0,190.0,144.0,108.0,77.0,38.0
-0.718078,0.0893522,-0.82197,-0.705399,-0.252584,-2.72786,1920.0,2.662,2.895,282383,2.95295,2.82849,2.795,19.851,15.94,2.8,-0.00350797,-0.00169091,257.0,257.0,257.0,232.0,156.0,102.0,49.0
-0.705683,0.852673,-1.10778,0.148826,0.321565,-1.1158,1971.2,2.543,2.87,344613,2.96279,2.90404,2.514,47.819,16.6,2.799,-0.00449587,-0.00363636,255.0,205.0,158.0,119.0,91.0,69.0,47.0
-0.600825,0.183003,-1.07057,0.414443,-0.334105,-0.100452,1996.8,2.56,2.901,344374,2.96075,2.86327,2.435,48.041,16.5,2.798,-0.00443639,-0.00307273,783.0,233.0,175.0,130.0,94.0,69.0,45.0
-0.835342,0.101538,-0.537124,0.23044,0.188283,-0.195601,1984.0,2.901,3.161,1.13077e+06,2.9831,1.24211,0.0,32.913,27.773,3.0095,-0.00140466,0.0149576,4.0,4.0,4.0,4.0,4.0,4.0,4.0
-1.7166,0.0923825,-0.775828,0.472261,-0.129626,-0.0428728,1971.2,2.825,3.158,683435,3.27815,3.119,3.119,31.298,26.628,3.086,-0.00500534,-0.003,134.0,134.0,134.0,134.0,94.0,74.0,44.0
-0.739508,1.22937,-0.83213,-0.0149875,0.463673,-1.47831,1920.0,2.871,3.143,521141,3.17255,3.0026,3.001,36.05,25.171,3.005,-0.00377643,-0.00133333,653.0,257.0,257.0,232.0,171.0,113.0,49.0
-0.754701,1.31953,-0.674661,0.046167,0.549381,-1.3534,1945.6,2.849,3.12,489470,3.14592,3.09215,2.97,32.758,24.535,2.9805,-0.00371623,-0.00247879,521.0,521.0,257.0,216.0,145.0,109.0,49.0
-0.69597,1.32496,-0.73142,0.106005,0.570766,-1.16448,1920.0,2.916,3.157,544352,3.22896,3.10807,3.064,37.525,25.269,3.064,-0.0037173,-0.00193939,521.0,257.0,242.0,190.0,147.0,102.0,54.0
-0.671386,1.26435,-0.659452,-0.366947,0.622593,-1.37755,1920.0,2.892,3.138,508770,3.20272,3.13373,3.042,37.886,25.328,3.0375,-0.00376706,-0.00252727,257.0,257.0,257.0,202.0,156.0,95.0,51.0
-0.714364,0.873593,-0.764112,0.288464,-0.797739,-0.642947,1920.0,2.842,3.116,501730,3.18475,3.10805,2.919,50.129,24.993,3.014,-0.00392712,-0.00272121,785.0,257.0,232.0,161.0,124.0,90.0,55.0
-0.798216,0.625552,-1.04088,0.233028,-0.59162,-0.673963,1945.6,2.772,3.116,434627,3.06829,2.91485,2.742,41.497,24.802,2.9025,-0.00364462,-0.00145455,785.0,785.0,257.0,257.0,191.0,110.0,54.0
-1.19997,0.338927,-1.22614,0.28151,-0.92393,-0.436085,1971.2,1.956,3.145,436994,2.26548,2.01836,1.58,30.906,27.731,2.0125,-0.00415021,-0.000630303,1159.0,1159.0,1159.0,1159.0,1159.0,1159.0,1159.0
-1.32883,0.438495,-1.44046,0.281187,-0.921109,-0.487541,1971.2,1.967,3.165,448185,2.26333,1.99395,1.562,31.497,27.766,2.0105,-0.00408473,-0.000278788,1293.0,1293.0,1293.0,1293.0,1293.0,1293.0,1293.0
-1.35066,0.488348,-1.42281,0.256649,-1.01213,-0.577645,1945.6,1.955,3.16,431550,2.25839,2.01002,1.555,30.038,26.836,2.005,-0.00415818,-0.000551515,1291.0,1291.0,1291.0,1291.0,1291.0,1291.0,1291.0
-1.2993,0.207676,-1.46001,0.278901,-0.933169,-0.407066,1920.0,1.924,3.097,422085,2.21493,1.92893,1.527,29.738,26.609,1.967,-0.00403116,-6.06061e-05,1528.0,1528.0,1528.0,1528.0,1528.0,1528.0,1528.0
-1.78343,0.17834,-1.74354,-1.92039,0.141536,-4.83008,1984.0,0.65,3.086,178365,0.987373,0.65,0.001,30.745,26.971,0.65,-0.00497689,-1.66415e-17,7877.0,7877.0,7877.0,7877.0,7877.0,7877.0,7877.0
-2.08889,-0.256774,-2.13716,-2.59577,-0.124764,-5.25022,1984.0,0.65,3.146,172834,0.991732,0.65,0.0,29.986,25.995,0.65,-0.00504143,-1.66415e-17,6079.0,6079.0,6079.0,6079.0,6079.0,6079.0,6079.0
-0.811348,0.598817,-1.12624,0.219572,0.0989853,-0.926916,2022.4,3.007,3.187,771238,3.28227,4.33793,3.135,45.108,35.708,3.1165,-0.00351491,-0.0144606,514.0,97.0,97.0,97.0,97.0,97.0,66.0
-0.954351,0.535966,-1.54288,0.0681672,-0.00353614,-0.811899,1971.2,2.987,3.153,766004,3.2267,3.18665,3.113,45.223,35.806,3.0795,-0.00295008,-0.00198788,257.0,257.0,66.0,66.0,66.0,66.0,66.0
-0.74636,1.17884,-0.837709,0.00739088,0.367707,-1.36412,1996.8,2.987,3.189,0.0,3.27484,3.1322,3.117,,,3.109,-0.00350245,-0.00146667,514.0,172.0,172.0,172.0,172.0,122.0,61.0
-0.76103,1.10236,-0.89886,0.0423001,0.322304,-1.25816,2048.0,3.017,3.205,725135,3.25782,3.16651,3.137,41.385,35.636,3.135,-0.00290061,-0.00150909,197.0,197.0,197.0,5.0,5.0,5.0,5.0
-0.948941,0.815958,-1.08577,0.0464496,0.265032,-0.541864,2022.4,2.802,3.158,717981,3.1301,3.04891,2.626,55.133,35.653,2.969,-0.00373546,-0.00250909,653.0,653.0,653.0,212.0,20.0,20.0,20.0
-0.751668,0.826453,-1.08371,0.390327,0.341938,-0.5231,2022.4,2.801,3.106,694818,3.15247,3.1116,2.469,55.153,36.131,3.0075,-0.00373516,-0.003,785.0,785.0,167.0,131.0,103.0,73.0,38.0

File: NMCBatteries.csv
abs_first_discharge_capacity_difference_cycles_2:100,abs_kurtosis_discharge_capacity_difference_cycles_2:100,abs_mean_discharge_capacity_difference_cycles_2:100,abs_min_discharge_capacity_difference_cycles_2:100,abs_skew_discharge_capacity_difference_cycles_2:100,abs_variance_discharge_capacity_difference_cycles_2:100,charge_time_cycles_1:5,discharge_capacity_cycle_100,discharge_capacity_cycle_2,integrated_time_temperature_cycles_1:100,intercept_discharge_capacity_cycle_number_2:100,intercept_discharge_capacity_cycle_number_91:100,max_discharge_capacity_difference,max_temperature_cycles_1:100,min_temperature_cycles_1:100,nominal_capacity_by_median,slope_discharge_capacity_cycle_number_2:100,slope_discharge_capacity_cycle_number_91:100,capacity_0.8,capacity_0.83,capacity_0.86,capacity_0.89,capacity_0.92,capacity_0.95,capacity_0.98
-0.619562,0.933,-1.08686,0.197719,0.120984,-0.887046,2099.2,2.296,2.697,311213,2.7637,2.64445,2.634,24.45,16.409,2.578,-0.00524002,-0.00352121,206.0,156.0,124.0,100.0,78.0,57.0,35.0
-0.875078,0.76493,-1.21257,0.099954,-0.164491,-0.962576,2073.6,2.287,2.579,299337,2.70951,2.64064,2.51,24.883,16.264,2.5495,-0.00453892,-0.0035697,226.0,164.0,130.0,105.0,83.0,62.0,43.0
-0.688966,0.362048,-1.33936,0.0338464,-0.0551242,-0.844389,2073.6,2.316,2.724,279772,2.78908,2.65267,2.69,31.305,16.363,2.5985,-0.00536517,-0.00340606,197.0,154.0,125.0,101.0,78.0,55.0,33.0
-0.671967,0.62331,-1.58391,0.00280469,0.129267,-1.02025,2073.6,2.294,2.714,286196,2.76469,2.63678,2.676,35.325,16.077,2.577,-0.0052889,-0.00344848,195.0,152.0,123.0,100.0,78.0,55.0,2.0
-0.882375,0.709305,-1.17381,0.352848,-0.553786,-0.492553,2099.2,2.661,2.907,590771,2.83466,2.82445,2.849,30.141,25.106,2.681,-0.00473,-0.00165455,552.0,552.0,61.0,57.0,49.0,34.0,27.0
-0.687508,0.15226,-1.46881,0.414197,-0.684563,-0.0917786,2073.6,2.667,2.99,645271,3.02351,2.73496,2.933,28.538,25.419,2.842,-0.00456763,-0.00069697,207.0,207.0,207.0,207.0,159.0,69.0,35.0
-0.742415,-0.140412,-1.0303,0.394611,-0.765197,-0.0787571,2099.2,2.642,2.967,522827,2.98854,2.74685,2.88,32.466,25.535,2.8115,-0.00435808,-0.00105455,520.0,520.0,256.0,256.0,165.0,77.0,36.0
-0.711193,-0.537222,-1.24182,0.389161,-1.10117,-0.0131755,2099.2,2.602,2.914,495523,2.93447,2.71582,2.827,29.704,24.77,2.761,-0.00418197,-0.00115152,784.0,784.0,256.0,256.0,175.0,82.0,37.0
-0.728789,-0.217446,-1.40787,0.387088,-0.810201,-0.0633387,2073.6,2.621,2.931,504901,2.95514,2.73435,2.841,30.702,25.101,2.7835,-0.00421213,-0.00114545,396.0,396.0,132.0,132.0,132.0,79.0,37.0
-0.708603,0.184926,-1.11803,0.396523,-0.463525,-0.220372,2073.6,2.627,2.96,495245,2.97403,2.74082,2.864,31.102,24.635,2.796,-0.00437423,-0.00115152,528.0,132.0,132.0,132.0,132.0,76.0,35.0
-0.754681,0.500899,-1.33671,0.251397,-0.214632,-0.54395,2048.0,2.611,2.929,434951,2.94782,2.71605,2.838,40.069,24.568,2.774,-0.00423375,-0.00105455,660.0,132.0,132.0,132.0,132.0,79.0,36.0
-1.24031,0.361945,-0.716075,0.177187,-0.360958,-0.591742,2048.0,2.63,2.793,428807,2.9102,2.74315,2.748,42.093,23.958,2.7715,-0.00345551,-0.00114545,132.0,132.0,132.0,132.0,132.0,97.0,41.0
-0.664992,-0.0772044,-1.03989,0.288033,-0.468189,-0.276598,2099.2,2.621,2.938,439757,2.9643,2.47465,2.88,44.596,25.379,2.7865,-0.00433903,0.00154545,729.0,729.0,213.0,213.0,126.0,78.0,36.0
-0.635051,0.0496693,-1.11389,0.306447,-0.423109,-0.265692,2048.0,2.629,2.965,444174,2.97476,2.74215,2.884,46.014,25.242,2.7935,-0.00437606,-0.00114545,551.0,551.0,212.0,212.0,174.0,79.0,36.0
-0.596926,-1.70398,-0.545179,0.340148,-0.176755,-0.0279877,2099.2,2.618,2.958,438253,2.96161,2.72838,2.801,49.455,26.343,2.789,-0.00424816,-0.00111515,697.0,697.0,58.0,58.0,58.0,58.0,35.0
-0.602557,0.0143032,-1.10483,0.306612,-0.66476,-0.244582,2099.2,2.632,2.973,456925,2.98266,2.73625,2.894,47.787,25.946,2.7995,-0.00444333,-0.00105455,904.0,904.0,211.0,211.0,135.0,76.0,35.0
-1.29011,0.817233,-1.23475,0.175284,-0.387787,-0.959062,2073.6,1.8,2.969,397114,1.96013,1.8,0.0,28.639,24.94,1.8,-0.00236233,-5.30298e-17,4350.0,4350.0,4350.0,4350.0,4350.0,4350.0,4350.0
-0.936584,0.490011,-0.702681,0.217895,-0.183824,-0.724479,2048.0,1.8,2.98,401200,1.96151,1.8,0.0,28.976,25.33,1.8,-0.00238269,-5.30298e-17,3630.0,3630.0,3630.0,3630.0,3630.0,3630.0,3630.0